mouse.x,mouse.y,mouse.leftButton,mouse.midButton,mouse.rightButton,Colour,Answer,Response.keys,Response.corr,trials.thisRepN,trials.thisTrialN,trials.thisN,trials.thisIndex,trials.ran,Word,Type,participant,session,id,group,date,expName,psychopyVersion,OS,frameRate,outer_loop.thisRepN,outer_loop.thisTrialN,outer_loop.thisN,outer_loop.thisIndex,outer_loop.ran
0.067382813,-0.407226563,0,0,0,red,d,,0,0,0,0,1,1,primate,Practice,Mark,1,1,1,2022-07-25_11h28.18.425,estroop,2021.2.3,MacIntel,58.82352941,,,,,
,,,,,yellow,j,,0,0,1,1,0,1,gradual,Practice,Mark,1,1,1,2022-07-25_11h28.18.425,estroop,2021.2.3,MacIntel,58.82352941,,,,,
,,,,,yellow,j,,0,0,2,2,4,1,careful,Practice,Mark,1,1,1,2022-07-25_11h28.18.425,estroop,2021.2.3,MacIntel,58.82352941,,,,,
,,,,,red,d,,0,0,3,3,7,1,backdrop,Practice,Mark,1,1,1,2022-07-25_11h28.18.425,estroop,2021.2.3,MacIntel,58.82352941,,,,,
,,,,,red,d,,0,0,4,4,10,1,describe,Practice,Mark,1,1,1,2022-07-25_11h28.18.425,estroop,2021.2.3,MacIntel,58.82352941,,,,,
,,,,,yellow,j,,0,0,5,5,6,1,gardener,Practice,Mark,1,1,1,2022-07-25_11h28.18.425,estroop,2021.2.3,MacIntel,58.82352941,,,,,
,,,,,green,k,,0,0,6,6,12,1,area,Practice,Mark,1,1,1,2022-07-25_11h28.18.425,estroop,2021.2.3,MacIntel,58.82352941,,,,,
,,,,,yellow,j,,0,0,7,7,8,1,shoulder,Practice,Mark,1,1,1,2022-07-25_11h28.18.425,estroop,2021.2.3,MacIntel,58.82352941,,,,,
,,,,,blue,f,,0,0,8,8,9,1,bulletin,Practice,Mark,1,1,1,2022-07-25_11h28.18.425,estroop,2021.2.3,MacIntel,58.82352941,,,,,
,,,,,yellow,j,,0,0,9,9,14,1,crumb,Practice,Mark,1,1,1,2022-07-25_11h28.18.425,estroop,2021.2.3,MacIntel,58.82352941,,,,,
,,,,,green,k,,0,0,10,10,11,1,cloakroom,Practice,Mark,1,1,1,2022-07-25_11h28.18.425,estroop,2021.2.3,MacIntel,58.82352941,,,,,
,,,,,green,k,,0,0,11,11,5,1,overall,Practice,Mark,1,1,1,2022-07-25_11h28.18.425,estroop,2021.2.3,MacIntel,58.82352941,,,,,
,,,,,green,k,,0,0,12,12,2,1,distant,Practice,Mark,1,1,1,2022-07-25_11h28.18.425,estroop,2021.2.3,MacIntel,58.82352941,,,,,
,,,,,green,k,,0,0,13,13,13,1,back,Practice,Mark,1,1,1,2022-07-25_11h28.18.425,estroop,2021.2.3,MacIntel,58.82352941,,,,,
,,,,,blue,f,,0,0,14,14,3,1,carrier,Practice,Mark,1,1,1,2022-07-25_11h28.18.425,estroop,2021.2.3,MacIntel,58.82352941,,,,,
,,,,,,,,,,,,,,,,Mark,1,1,1,2022-07-25_11h28.18.425,estroop,2021.2.3,MacIntel,58.82352941,0,0,0,0,1
,,,,,red,d,,0,0,0,0,22,1,tartar,Neutral,Mark,1,1,1,2022-07-25_11h28.18.425,estroop,2021.2.3,MacIntel,58.82352941,,,,,
,,,,,yellow,j,,0,0,1,1,21,1,adjacent,Neutral,Mark,1,1,1,2022-07-25_11h28.18.425,estroop,2021.2.3,MacIntel,58.82352941,,,,,
,,,,,blue,f,,0,0,2,2,2,1,author,Neutral,Mark,1,1,1,2022-07-25_11h28.18.425,estroop,2021.2.3,MacIntel,58.82352941,,,,,
,,,,,green,k,,0,0,3,3,12,1,appendix,Neutral,Mark,1,1,1,2022-07-25_11h28.18.425,estroop,2021.2.3,MacIntel,58.82352941,,,,,
,,,,,yellow,j,,0,0,4,4,6,1,branch,Neutral,Mark,1,1,1,2022-07-25_11h28.18.425,estroop,2021.2.3,MacIntel,58.82352941,,,,,
,,,,,red,d,,0,0,5,5,27,1,dozen,Neutral,Mark,1,1,1,2022-07-25_11h28.18.425,estroop,2021.2.3,MacIntel,58.82352941,,,,,
,,,,,red,d,,0,0,6,6,20,1,clinic,Neutral,Mark,1,1,1,2022-07-25_11h28.18.425,estroop,2021.2.3,MacIntel,58.82352941,,,,,
,,,,,blue,f,,0,0,7,7,11,1,abbey,Neutral,Mark,1,1,1,2022-07-25_11h28.18.425,estroop,2021.2.3,MacIntel,58.82352941,,,,,
,,,,,green,k,,0,0,8,8,1,1,plywood,Neutral,Mark,1,1,1,2022-07-25_11h28.18.425,estroop,2021.2.3,MacIntel,58.82352941,,,,,
,,,,,red,d,,0,0,9,9,0,1,silverware,Neutral,Mark,1,1,1,2022-07-25_11h28.18.425,estroop,2021.2.3,MacIntel,58.82352941,,,,,
,,,,,blue,f,,0,0,10,10,5,1,basis,Neutral,Mark,1,1,1,2022-07-25_11h28.18.425,estroop,2021.2.3,MacIntel,58.82352941,,,,,
,,,,,blue,f,,0,0,11,11,15,1,biscuit,Neutral,Mark,1,1,1,2022-07-25_11h28.18.425,estroop,2021.2.3,MacIntel,58.82352941,,,,,
,,,,,red,d,,0,0,12,12,9,1,bathroom,Neutral,Mark,1,1,1,2022-07-25_11h28.18.425,estroop,2021.2.3,MacIntel,58.82352941,,,,,
,,,,,green,k,,0,0,13,13,19,1,asparagus,Neutral,Mark,1,1,1,2022-07-25_11h28.18.425,estroop,2021.2.3,MacIntel,58.82352941,,,,,
,,,,,yellow,j,,0,0,14,14,28,1,basket,Neutral,Mark,1,1,1,2022-07-25_11h28.18.425,estroop,2021.2.3,MacIntel,58.82352941,,,,,
,,,,,blue,f,,0,0,15,15,14,1,lens,Neutral,Mark,1,1,1,2022-07-25_11h28.18.425,estroop,2021.2.3,MacIntel,58.82352941,,,,,
,,,,,blue,f,,0,0,16,16,23,1,accept,Neutral,Mark,1,1,1,2022-07-25_11h28.18.425,estroop,2021.2.3,MacIntel,58.82352941,,,,,
,,,,,green,k,,0,0,17,17,26,1,solitary,Neutral,Mark,1,1,1,2022-07-25_11h28.18.425,estroop,2021.2.3,MacIntel,58.82352941,,,,,
,,,,,blue,f,,0,0,18,18,24,1,consulate,Neutral,Mark,1,1,1,2022-07-25_11h28.18.425,estroop,2021.2.3,MacIntel,58.82352941,,,,,
,,,,,green,k,,0,0,19,19,29,1,clipboard,Neutral,Mark,1,1,1,2022-07-25_11h28.18.425,estroop,2021.2.3,MacIntel,58.82352941,,,,,
,,,,,green,k,,0,0,20,20,4,1,conservative,Neutral,Mark,1,1,1,2022-07-25_11h28.18.425,estroop,2021.2.3,MacIntel,58.82352941,,,,,
,,,,,yellow,j,,0,0,21,21,7,1,allow,Neutral,Mark,1,1,1,2022-07-25_11h28.18.425,estroop,2021.2.3,MacIntel,58.82352941,,,,,
,,,,,blue,f,,0,0,22,22,17,1,derive,Neutral,Mark,1,1,1,2022-07-25_11h28.18.425,estroop,2021.2.3,MacIntel,58.82352941,,,,,
,,,,,blue,f,,0,0,23,23,3,1,acre,Neutral,Mark,1,1,1,2022-07-25_11h28.18.425,estroop,2021.2.3,MacIntel,58.82352941,,,,,
,,,,,red,d,,0,0,24,24,8,1,oven,Neutral,Mark,1,1,1,2022-07-25_11h28.18.425,estroop,2021.2.3,MacIntel,58.82352941,,,,,
,,,,,yellow,j,,0,0,25,25,18,1,almond,Neutral,Mark,1,1,1,2022-07-25_11h28.18.425,estroop,2021.2.3,MacIntel,58.82352941,,,,,
,,,,,yellow,j,,0,0,26,26,16,1,involvement,Neutral,Mark,1,1,1,2022-07-25_11h28.18.425,estroop,2021.2.3,MacIntel,58.82352941,,,,,
,,,,,yellow,j,,0,0,27,27,13,1,weatherman,Neutral,Mark,1,1,1,2022-07-25_11h28.18.425,estroop,2021.2.3,MacIntel,58.82352941,,,,,
,,,,,red,d,,0,0,28,28,25,1,hole,Neutral,Mark,1,1,1,2022-07-25_11h28.18.425,estroop,2021.2.3,MacIntel,58.82352941,,,,,
,,,,,red,d,,0,0,29,29,10,1,omission,Neutral,Mark,1,1,1,2022-07-25_11h28.18.425,estroop,2021.2.3,MacIntel,58.82352941,,,,,
,,,,,,,,,,,,,,,,Mark,1,1,1,2022-07-25_11h28.18.425,estroop,2021.2.3,MacIntel,58.82352941,1,0,1,0,1
,,,,,red,d,,0,0,0,0,16,1,heartbroken,Negative,Mark,1,1,1,2022-07-25_11h28.18.425,estroop,2021.2.3,MacIntel,58.82352941,,,,,
,,,,,green,k,,0,0,1,1,24,1,nightmare,Negative,Mark,1,1,1,2022-07-25_11h28.18.425,estroop,2021.2.3,MacIntel,58.82352941,,,,,
,,,,,red,d,,0,0,2,2,25,1,pain,Negative,Mark,1,1,1,2022-07-25_11h28.18.425,estroop,2021.2.3,MacIntel,58.82352941,,,,,
,,,,,green,k,,0,0,3,3,12,1,genocide,Negative,Mark,1,1,1,2022-07-25_11h28.18.425,estroop,2021.2.3,MacIntel,58.82352941,,,,,
,,,,,red,d,,0,0,4,4,7,1,death,Negative,Mark,1,1,1,2022-07-25_11h28.18.425,estroop,2021.2.3,MacIntel,58.82352941,,,,,
,,,,,red,d,,0,0,5,5,19,1,kidnapper,Negative,Mark,1,1,1,2022-07-25_11h28.18.425,estroop,2021.2.3,MacIntel,58.82352941,,,,,
,,,,,red,d,,0,0,6,6,20,1,killer,Negative,Mark,1,1,1,2022-07-25_11h28.18.425,estroop,2021.2.3,MacIntel,58.82352941,,,,,
,,,,,blue,f,,0,0,7,7,21,1,massacre,Negative,Mark,1,1,1,2022-07-25_11h28.18.425,estroop,2021.2.3,MacIntel,58.82352941,,,,,
,,,,,yellow,j,,0,0,8,8,27,1,worry,Negative,Mark,1,1,1,2022-07-25_11h28.18.425,estroop,2021.2.3,MacIntel,58.82352941,,,,,
,,,,,yellow,j,,0,0,9,9,28,1,racism,Negative,Mark,1,1,1,2022-07-25_11h28.18.425,estroop,2021.2.3,MacIntel,58.82352941,,,,,
,,,,,yellow,j,,0,0,10,10,23,1,murder,Negative,Mark,1,1,1,2022-07-25_11h28.18.425,estroop,2021.2.3,MacIntel,58.82352941,,,,,
,,,,,red,d,,0,0,11,11,22,1,mugger,Negative,Mark,1,1,1,2022-07-25_11h28.18.425,estroop,2021.2.3,MacIntel,58.82352941,,,,,
,,,,,green,k,,0,0,12,12,11,1,fatal,Negative,Mark,1,1,1,2022-07-25_11h28.18.425,estroop,2021.2.3,MacIntel,58.82352941,,,,,
,,,,,blue,f,,0,0,13,13,13,1,guillotine,Negative,Mark,1,1,1,2022-07-25_11h28.18.425,estroop,2021.2.3,MacIntel,58.82352941,,,,,
,,,,,green,k,,0,0,14,14,2,1,attack,Negative,Mark,1,1,1,2022-07-25_11h28.18.425,estroop,2021.2.3,MacIntel,58.82352941,,,,,
,,,,,yellow,j,,0,0,15,15,6,1,crisis,Negative,Mark,1,1,1,2022-07-25_11h28.18.425,estroop,2021.2.3,MacIntel,58.82352941,,,,,
,,,,,yellow,j,,0,0,16,16,29,1,terrorism,Negative,Mark,1,1,1,2022-07-25_11h28.18.425,estroop,2021.2.3,MacIntel,58.82352941,,,,,
,,,,,yellow,j,,0,0,17,17,4,1,catastrophic,Negative,Mark,1,1,1,2022-07-25_11h28.18.425,estroop,2021.2.3,MacIntel,58.82352941,,,,,
,,,,,green,k,,0,0,18,18,15,1,hateful,Negative,Mark,1,1,1,2022-07-25_11h28.18.425,estroop,2021.2.3,MacIntel,58.82352941,,,,,
,,,,,blue,f,,0,0,19,19,10,1,epidemic,Negative,Mark,1,1,1,2022-07-25_11h28.18.425,estroop,2021.2.3,MacIntel,58.82352941,,,,,
,,,,,green,k,,0,0,20,20,9,1,disaster,Negative,Mark,1,1,1,2022-07-25_11h28.18.425,estroop,2021.2.3,MacIntel,58.82352941,,,,,
,,,,,blue,f,,0,0,21,21,18,1,hijack,Negative,Mark,1,1,1,2022-07-25_11h28.18.425,estroop,2021.2.3,MacIntel,58.82352941,,,,,
,,,,,red,d,,0,0,22,22,3,1,bury,Negative,Mark,1,1,1,2022-07-25_11h28.18.425,estroop,2021.2.3,MacIntel,58.82352941,,,,,
,,,,,yellow,j,,0,0,23,23,17,1,herpes,Negative,Mark,1,1,1,2022-07-25_11h28.18.425,estroop,2021.2.3,MacIntel,58.82352941,,,,,
,,,,,blue,f,,0,0,24,24,1,1,assault,Negative,Mark,1,1,1,2022-07-25_11h28.18.425,estroop,2021.2.3,MacIntel,58.82352941,,,,,
,,,,,green,k,,0,0,25,25,26,1,parasite,Negative,Mark,1,1,1,2022-07-25_11h28.18.425,estroop,2021.2.3,MacIntel,58.82352941,,,,,
,,,,,blue,f,,0,0,26,26,14,1,harm,Negative,Mark,1,1,1,2022-07-25_11h28.18.425,estroop,2021.2.3,MacIntel,58.82352941,,,,,
,,,,,green,k,,0,0,27,27,0,1,infidelity,Negative,Mark,1,1,1,2022-07-25_11h28.18.425,estroop,2021.2.3,MacIntel,58.82352941,,,,,
,,,,,green,k,,0,0,28,28,8,1,debt,Negative,Mark,1,1,1,2022-07-25_11h28.18.425,estroop,2021.2.3,MacIntel,58.82352941,,,,,
,,,,,yellow,j,,0,0,29,29,5,1,crime,Negative,Mark,1,1,1,2022-07-25_11h28.18.425,estroop,2021.2.3,MacIntel,58.82352941,,,,,
,,,,,,,,,,,,,,,,Mark,1,1,1,2022-07-25_11h28.18.425,estroop,2021.2.3,MacIntel,58.82352941,2,0,2,0,1
,,,,,blue,f,,0,0,0,0,0,1,enchanting,Positive,Mark,1,1,1,2022-07-25_11h28.18.425,estroop,2021.2.3,MacIntel,58.82352941,,,,,
,,,,,red,d,,0,0,1,1,14,1,hire,Positive,Mark,1,1,1,2022-07-25_11h28.18.425,estroop,2021.2.3,MacIntel,58.82352941,,,,,
,,,,,yellow,j,,0,0,2,2,17,1,cinema,Positive,Mark,1,1,1,2022-07-25_11h28.18.425,estroop,2021.2.3,MacIntel,58.82352941,,,,,
,,,,,red,d,,0,0,3,3,23,1,travel,Positive,Mark,1,1,1,2022-07-25_11h28.18.425,estroop,2021.2.3,MacIntel,58.82352941,,,,,
,,,,,green,k,,0,0,4,4,24,1,seduction,Positive,Mark,1,1,1,2022-07-25_11h28.18.425,estroop,2021.2.3,MacIntel,58.82352941,,,,,
,,,,,red,d,,0,0,5,5,25,1,joke,Positive,Mark,1,1,1,2022-07-25_11h28.18.425,estroop,2021.2.3,MacIntel,58.82352941,,,,,
,,,,,yellow,j,,0,0,6,6,28,1,invent,Positive,Mark,1,1,1,2022-07-25_11h28.18.425,estroop,2021.2.3,MacIntel,58.82352941,,,,,
,,,,,green,k,,0,0,7,7,21,1,treasure,Positive,Mark,1,1,1,2022-07-25_11h28.18.425,estroop,2021.2.3,MacIntel,58.82352941,,,,,
,,,,,red,d,,0,0,8,8,7,1,happy,Positive,Mark,1,1,1,2022-07-25_11h28.18.425,estroop,2021.2.3,MacIntel,58.82352941,,,,,
,,,,,green,k,,0,0,9,9,1,1,prosper,Positive,Mark,1,1,1,2022-07-25_11h28.18.425,estroop,2021.2.3,MacIntel,58.82352941,,,,,
,,,,,red,d,,0,0,10,10,29,1,rewarding,Positive,Mark,1,1,1,2022-07-25_11h28.18.425,estroop,2021.2.3,MacIntel,58.82352941,,,,,
,,,,,blue,f,,0,0,11,11,19,1,thrilling,Positive,Mark,1,1,1,2022-07-25_11h28.18.425,estroop,2021.2.3,MacIntel,58.82352941,,,,,
,,,,,blue,f,,0,0,12,12,2,1,energy,Positive,Mark,1,1,1,2022-07-25_11h28.18.425,estroop,2021.2.3,MacIntel,58.82352941,,,,,
,,,,,red,d,,0,0,13,13,15,1,bravery,Positive,Mark,1,1,1,2022-07-25_11h28.18.425,estroop,2021.2.3,MacIntel,58.82352941,,,,,
,,,,,blue,f,,0,0,14,14,26,1,comedian,Positive,Mark,1,1,1,2022-07-25_11h28.18.425,estroop,2021.2.3,MacIntel,58.82352941,,,,,
,,,,,green,k,,0,0,15,15,4,1,intelligence,Positive,Mark,1,1,1,2022-07-25_11h28.18.425,estroop,2021.2.3,MacIntel,58.82352941,,,,,
,,,,,yellow,j,,0,0,16,16,11,1,adore,Positive,Mark,1,1,1,2022-07-25_11h28.18.425,estroop,2021.2.3,MacIntel,58.82352941,,,,,
,,,,,green,k,,0,0,17,17,27,1,alive,Positive,Mark,1,1,1,2022-07-25_11h28.18.425,estroop,2021.2.3,MacIntel,58.82352941,,,,,
,,,,,red,d,,0,0,18,18,10,1,intimacy,Positive,Mark,1,1,1,2022-07-25_11h28.18.425,estroop,2021.2.3,MacIntel,58.82352941,,,,,
,,,,,yellow,j,,0,0,19,19,5,1,magic,Positive,Mark,1,1,1,2022-07-25_11h28.18.425,estroop,2021.2.3,MacIntel,58.82352941,,,,,
,,,,,red,d,,0,0,20,20,3,1,swim,Positive,Mark,1,1,1,2022-07-25_11h28.18.425,estroop,2021.2.3,MacIntel,58.82352941,,,,,
,,,,,blue,f,,0,0,21,21,12,1,pregnant,Positive,Mark,1,1,1,2022-07-25_11h28.18.425,estroop,2021.2.3,MacIntel,58.82352941,,,,,
,,,,,yellow,j,,0,0,22,22,20,1,genius,Positive,Mark,1,1,1,2022-07-25_11h28.18.425,estroop,2021.2.3,MacIntel,58.82352941,,,,,
,,,,,yellow,j,,0,0,23,23,18,1,joyful,Positive,Mark,1,1,1,2022-07-25_11h28.18.425,estroop,2021.2.3,MacIntel,58.82352941,,,,,
,,,,,blue,f,,0,0,24,24,9,1,festival,Positive,Mark,1,1,1,2022-07-25_11h28.18.425,estroop,2021.2.3,MacIntel,58.82352941,,,,,
,,,,,yellow,j,,0,0,25,25,13,1,cleverness,Positive,Mark,1,1,1,2022-07-25_11h28.18.425,estroop,2021.2.3,MacIntel,58.82352941,,,,,
,,,,,blue,f,,0,0,26,26,16,1,spectacular,Positive,Mark,1,1,1,2022-07-25_11h28.18.425,estroop,2021.2.3,MacIntel,58.82352941,,,,,
,,,,,green,k,,0,0,27,27,22,1,amazed,Positive,Mark,1,1,1,2022-07-25_11h28.18.425,estroop,2021.2.3,MacIntel,58.82352941,,,,,
,,,,,yellow,j,,0,0,28,28,8,1,sexy,Positive,Mark,1,1,1,2022-07-25_11h28.18.425,estroop,2021.2.3,MacIntel,58.82352941,,,,,
,,,,,green,k,,0,0,29,29,6,1,winner,Positive,Mark,1,1,1,2022-07-25_11h28.18.425,estroop,2021.2.3,MacIntel,58.82352941,,,,,
,,,,,,,,,,,,,,,,Mark,1,1,1,2022-07-25_11h28.18.425,estroop,2021.2.3,MacIntel,58.82352941,3,0,3,0,1
